X	Y	C	Z	T	Intensity	BG	MX
441.000	473.000	3	2	1	155.929	100.689	175.794
441.707	473.707	3	2	1	161.347	100.689	175.794
442.000	474.663	3	2	1	168.648	100.689	175.794
442.518	475.518	3	2	1	175.747	100.689	175.794
443.000	476.395	3	2	1	181.065	100.689	175.794
443.336	477.336	3	2	1	181.288	100.689	175.794
444.044	478.044	3	2	1	185.044	100.689	175.794
444.751	478.751	3	2	1	193.087	100.689	175.794
445.295	479.590	3	2	1	200.011	100.689	175.794
445.742	480.484	3	2	1	210.836	100.689	175.794
446.189	481.379	3	2	1	216.143	100.689	175.794
446.636	482.273	3	2	1	230.168	100.689	175.794
447.199	483.100	3	2	1	225.206	100.689	175.794
448.094	483.547	3	2	1	231.568	100.689	175.794
448.988	483.994	3	2	1	231.657	100.689	175.794
449.000	484.994	3	2	1	222.922	100.689	175.794
449.000	485.994	3	2	1	233.935	100.689	175.794
450.000	486.000	3	2	1	216.832	100.689	175.794
450.000	487.000	3	2	1	227.590	100.689	175.794
450.000	488.000	3	2	1	235.492	100.689	175.794
450.000	489.000	3	2	1	217.529	100.689	175.794
450.000	490.000	3	2	1	211.127	100.689	175.794
450.707	490.707	3	2	1	197.125	100.689	175.794
451.000	491.663	3	2	1	192.531	100.689	175.794
451.000	492.663	3	2	1	188.955	100.689	175.794
451.000	493.663	3	2	1	186.175	100.689	175.794
451.213	494.640	3	2	1	188.819	100.689	175.794
451.530	495.589	3	2	1	192.089	100.689	175.794
451.846	496.538	3	2	1	190.332	100.689	175.794
452.382	497.382	3	2	1	175.119	100.689	175.794
453.000	498.168	3	2	1	159.523	100.689	175.794
453.000	499.168	3	2	1	165.486	100.689	175.794
453.000	500.168	3	2	1	156.761	100.689	175.794
453.000	501.168	3	2	1	158.730	100.689	175.794
453.000	502.168	3	2	1	152.796	100.689	175.794
453.000	503.168	3	2	1	153.757	100.689	175.794
453.000	504.168	3	2	1	152.373	100.689	175.794
453.000	505.168	3	2	1	139.523	100.689	175.794
453.000	506.168	3	2	1	133.985	100.689	175.794
453.082	507.164	3	2	1	130.656	100.689	175.794
453.529	508.059	3	2	1	136.371	100.689	175.794
453.977	508.953	3	2	1	131.272	100.689	175.794
454.000	509.953	3	2	1	136.604	100.689	175.794
454.000	510.953	3	2	1	130.431	100.689	175.794
454.000	511.953	3	2	1	127.449	100.689	175.794
454.000	512.953	3	2	1	125.006	100.689	175.794
454.683	513.683	3	2	1	126.211	100.689	175.794
455.000	514.632	3	2	1	123.546	100.689	175.794
455.294	515.588	3	2	1	117.792	100.689	175.794
455.741	516.482	3	2	1	111.858	100.689	175.794
456.000	517.448	3	2	1	112.288	100.689	175.794
456.375	518.375	3	2	1	112.299	100.689	175.794
457.000	519.156	3	2	1	112.695	100.689	175.794
457.000	520.156	3	2	1	109.265	100.689	175.794
457.076	521.153	3	2	1	116.466	100.689	175.794
457.524	522.047	3	2	1	113.775	100.689	175.794
457.971	522.942	3	2	1	108.522	100.689	175.794
458.663	523.663	3	2	1	116.929	100.689	175.794
459.370	524.370	3	2	1	115.881	100.689	175.794
460.000	525.147	3	2	1	110.562	100.689	175.794
460.137	526.137	3	2	1	112.336	100.689	175.794
460.845	526.845	3	2	1	112.770	100.689	175.794
461.000	527.832	3	2	1	108.578	100.689	175.794
461.000	528.832	3	2	1	107.196	100.689	175.794
461.618	529.618	3	2	1	115.037	100.689	175.794
462.000	530.543	3	2	1	116.260	100.689	175.794
462.440	531.440	3	2	1	116.606	100.689	175.794
463.000	532.269	3	2	1	120.790	100.689	175.794
463.130	533.261	3	2	1	122.261	100.689	175.794
463.578	534.155	3	2	1	114.256	100.689	175.794
464.000	535.061	3	2	1	116.583	100.689	175.794
464.000	536.061	3	2	1	128.083	100.689	175.794
464.030	537.061	3	2	1	116.580	100.689	175.794
464.478	537.955	3	2	1	115.617	100.689	175.794
464.925	538.850	3	2	1	114.461	100.689	175.794
465.000	539.847	3	2	1	117.638	100.689	175.794
465.385	540.770	3	2	1	123.086	100.689	175.794
465.832	541.664	3	2	1	129.447	100.689	175.794
466.000	542.650	3	2	1	129.429	100.689	175.794
466.302	543.604	3	2	1	128.242	100.689	175.794
466.749	544.498	3	2	1	130.607	100.689	175.794
467.000	545.466	3	2	1	141.184	100.689	175.794
467.000	546.466	3	2	1	132.538	100.689	175.794
467.388	547.388	3	2	1	130.278	100.689	175.794
468.000	548.178	3	2	1	123.711	100.689	175.794
468.000	549.178	3	2	1	123.184	100.689	175.794
468.165	550.165	3	2	1	125.005	100.689	175.794
468.872	550.872	3	2	1	124.622	100.689	175.794
469.000	551.864	3	2	1	127.826	100.689	175.794
469.636	552.636	3	2	1	128.726	100.689	175.794
470.000	553.567	3	2	1	131.146	100.689	175.794
470.457	554.457	3	2	1	144.713	100.689	175.794
471.108	555.216	3	2	1	152.685	100.689	175.794
471.555	556.110	3	2	1	151.099	100.689	175.794
472.000	557.005	3	2	1	162.068	100.689	175.794
472.000	558.005	3	2	1	168.201	100.689	175.794
472.005	559.005	3	2	1	168.599	100.689	175.794
472.713	559.713	3	2	1	151.651	100.689	175.794
473.000	560.670	3	2	1	131.946	100.689	175.794
473.000	561.670	3	2	1	127.697	100.689	175.794
473.000	562.670	3	2	1	122.136	100.689	175.794
473.000	563.670	3	2	1	119.794	100.689	175.794
473.310	564.621	3	2	1	123.310	100.689	175.794
473.758	565.515	3	2	1	129.524	100.689	175.794
474.205	566.410	3	2	1	143.384	100.689	175.794
474.652	567.304	3	2	1	140.453	100.689	175.794
475.000	568.242	3	2	1	143.070	100.689	175.794
475.218	569.218	3	2	1	151.163	100.689	175.794
475.925	569.925	3	2	1	161.940	100.689	175.794
476.000	570.922	3	2	1	153.606	100.689	175.794
476.667	571.667	3	2	1	142.917	100.689	175.794
477.610	572.000	3	2	1	139.468	100.689	175.794
478.485	572.485	3	2	1	136.262	100.689	175.794
479.126	573.252	3	2	1	140.310	100.689	175.794
479.573	574.146	3	2	1	131.531	100.689	175.794
480.034	575.034	3	2	1	135.786	100.689	175.794
480.741	575.741	3	2	1	139.028	100.689	175.794
481.448	576.448	3	2	1	146.882	100.689	175.794
482.155	577.155	3	2	1	144.656	100.689	175.794
482.862	577.862	3	2	1	143.162	100.689	175.794
483.569	578.569	3	2	1	144.041	100.689	175.794
484.277	579.277	3	2	1	155.965	100.689	175.794
484.984	579.984	3	2	1	162.712	100.689	175.794
485.984	580.000	3	2	1	156.804	100.689	175.794
486.699	580.699	3	2	1	158.523	100.689	175.794
487.406	581.406	3	2	1	164.764	100.689	175.794
488.075	582.149	3	2	1	157.930	100.689	175.794
488.522	583.044	3	2	1	164.854	100.689	175.794
488.969	583.938	3	2	1	163.381	100.689	175.794
489.844	584.422	3	2	1	165.350	100.689	175.794
490.739	584.869	3	2	1	162.471	100.689	175.794
491.508	585.508	3	2	1	163.174	100.689	175.794
492.215	586.215	3	2	1	165.574	100.689	175.794
492.922	586.922	3	2	1	167.744	100.689	175.794
493.629	587.629	3	2	1	170.332	100.689	175.794
494.558	588.000	3	2	1	165.399	100.689	175.794
495.000	588.897	3	2	1	160.120	100.689	175.794
495.995	589.000	3	2	1	153.060	100.689	175.794
