X	Y	C	Z	T	Intensity	BG	MX
424.000	745.000	3	1	1	176.989	105.450	158.864
424.000	746.000	3	1	1	173.339	105.450	158.864
424.000	747.000	3	1	1	181.222	105.450	158.864
423.293	747.707	3	1	1	176.057	105.450	158.864
422.732	748.535	3	1	1	180.086	105.450	158.864
422.285	749.430	3	1	1	166.607	105.450	158.864
422.000	750.388	3	1	1	170.039	105.450	158.864
421.873	751.380	3	1	1	157.956	105.450	158.864
421.557	752.329	3	1	1	160.411	105.450	158.864
421.241	753.277	3	1	1	168.728	105.450	158.864
421.000	754.248	3	1	1	171.833	105.450	158.864
421.000	755.248	3	1	1	172.000	105.450	158.864
421.000	756.248	3	1	1	178.982	105.450	158.864
421.000	757.248	3	1	1	169.551	105.450	158.864
421.000	758.248	3	1	1	170.190	105.450	158.864
421.000	759.248	3	1	1	173.556	105.450	158.864
420.777	760.223	3	1	1	182.687	105.450	158.864
420.070	760.930	3	1	1	172.810	105.450	158.864
420.000	761.928	3	1	1	163.657	105.450	158.864
420.000	762.928	3	1	1	154.839	105.450	158.864
420.000	763.928	3	1	1	155.432	105.450	158.864
420.000	764.928	3	1	1	147.820	105.450	158.864
420.000	765.928	3	1	1	164.671	105.450	158.864
420.000	766.928	3	1	1	162.402	105.450	158.864
420.000	767.928	3	1	1	156.450	105.450	158.864
420.000	768.928	3	1	1	157.404	105.450	158.864
420.000	769.928	3	1	1	162.005	105.450	158.864
420.000	770.928	3	1	1	166.134	105.450	158.864
420.000	771.928	3	1	1	171.285	105.450	158.864
420.000	772.928	3	1	1	176.614	105.450	158.864
420.000	773.928	3	1	1	174.165	105.450	158.864
420.000	774.928	3	1	1	185.465	105.450	158.864
420.000	775.928	3	1	1	212.056	105.450	158.864
420.000	776.928	3	1	1	218.585	105.450	158.864
420.000	777.928	3	1	1	213.836	105.450	158.864
420.000	778.928	3	1	1	223.891	105.450	158.864
420.000	779.928	3	1	1	232.252	105.450	158.864
420.000	780.928	3	1	1	215.884	105.450	158.864
420.000	781.928	3	1	1	185.284	105.450	158.864
420.000	782.928	3	1	1	183.518	105.450	158.864
420.000	783.928	3	1	1	183.438	105.450	158.864
420.000	784.928	3	1	1	192.147	105.450	158.864
420.000	785.928	3	1	1	181.598	105.450	158.864
419.330	786.670	3	1	1	170.483	105.450	158.864
419.000	787.614	3	1	1	175.076	105.450	158.864
419.000	788.614	3	1	1	174.052	105.450	158.864
419.000	789.614	3	1	1	184.267	105.450	158.864
419.000	790.614	3	1	1	193.112	105.450	158.864
418.078	791.000	3	1	1	193.300	105.450	158.864
418.000	791.997	3	1	1	189.628	105.450	158.864
418.000	792.997	3	1	1	192.269	105.450	158.864
418.000	793.997	3	1	1	205.403	105.450	158.864
418.000	794.997	3	1	1	191.341	105.450	158.864
418.000	795.997	3	1	1	201.494	105.450	158.864
418.000	796.997	3	1	1	189.985	105.450	158.864
418.000	797.997	3	1	1	191.189	105.450	158.864
418.000	798.997	3	1	1	198.327	105.450	158.864
418.000	799.997	3	1	1	205.120	105.450	158.864
418.000	800.997	3	1	1	207.151	105.450	158.864
418.000	801.997	3	1	1	211.051	105.450	158.864
418.000	802.997	3	1	1	213.412	105.450	158.864
418.000	803.997	3	1	1	218.485	105.450	158.864
418.706	804.706	3	1	1	226.692	105.450	158.864
419.000	805.661	3	1	1	214.186	105.450	158.864
419.000	806.661	3	1	1	238.537	105.450	158.864
419.000	807.661	3	1	1	245.833	105.450	158.864
419.000	808.661	3	1	1	247.038	105.450	158.864
419.000	809.661	3	1	1	254.691	105.450	158.864
419.000	810.661	3	1	1	255.091	105.450	158.864
419.517	811.517	3	1	1	262.554	105.450	158.864
420.000	812.393	3	1	1	266.432	105.450	158.864
420.188	813.375	3	1	1	267.985	105.450	158.864
420.635	814.270	3	1	1	252.559	105.450	158.864
421.000	815.201	3	1	1	228.762	105.450	158.864
421.184	816.183	3	1	1	219.684	105.450	158.864
421.891	816.891	3	1	1	212.231	105.450	158.864
422.000	817.885	3	1	1	198.385	105.450	158.864
422.647	818.647	3	1	1	189.207	105.450	158.864
423.000	819.583	3	1	1	184.432	105.450	158.864
423.909	820.000	3	1	1	190.765	105.450	158.864
424.000	820.996	3	1	1	184.733	105.450	158.864
424.000	821.996	3	1	1	175.489	105.450	158.864
424.000	822.996	3	1	1	186.442	105.450	158.864
424.446	823.891	3	1	1	192.465	105.450	158.864
424.893	824.786	3	1	1	199.091	105.450	158.864
425.000	825.780	3	1	1	191.959	105.450	158.864
425.000	826.780	3	1	1	198.283	105.450	158.864
425.000	827.780	3	1	1	195.945	105.450	158.864
425.000	828.780	3	1	1	195.488	105.450	158.864
425.000	829.780	3	1	1	200.682	105.450	158.864
425.000	830.780	3	1	1	199.017	105.450	158.864
425.000	831.780	3	1	1	196.480	105.450	158.864
425.000	832.780	3	1	1	190.198	105.450	158.864
425.000	833.780	3	1	1	186.819	105.450	158.864
425.000	834.780	3	1	1	186.891	105.450	158.864
425.000	835.780	3	1	1	190.438	105.450	158.864
425.000	836.780	3	1	1	188.815	105.450	158.864
425.000	837.780	3	1	1	183.292	105.450	158.864
425.000	838.780	3	1	1	181.193	105.450	158.864
425.588	839.588	3	1	1	183.551	105.450	158.864
426.000	840.500	3	1	1	183.033	105.450	158.864
426.000	841.500	3	1	1	175.672	105.450	158.864
426.000	842.500	3	1	1	188.429	105.450	158.864
426.000	843.500	3	1	1	196.198	105.450	158.864
426.000	844.500	3	1	1	192.623	105.450	158.864
426.000	845.500	3	1	1	202.651	105.450	158.864
426.411	846.411	3	1	1	199.023	105.450	158.864
427.000	847.220	3	1	1	191.483	105.450	158.864
427.000	848.220	3	1	1	190.505	105.450	158.864
427.000	849.220	3	1	1	191.997	105.450	158.864
427.000	850.220	3	1	1	197.712	105.450	158.864
427.199	851.199	3	1	1	185.018	105.450	158.864
427.907	851.907	3	1	1	178.247	105.450	158.864
428.000	852.902	3	1	1	180.324	105.450	158.864
428.000	853.902	3	1	1	184.002	105.450	158.864
428.656	854.656	3	1	1	183.440	105.450	158.864
429.000	855.596	3	1	1	181.980	105.450	158.864
429.475	856.475	3	1	1	184.812	105.450	158.864
430.000	857.327	3	1	1	171.882	105.450	158.864
430.000	858.327	3	1	1	175.129	105.450	158.864
430.000	859.327	3	1	1	157.794	105.450	158.864
430.285	860.285	3	1	1	158.454	105.450	158.864
430.992	860.992	3	1	1	159.600	105.450	158.864
431.000	861.992	3	1	1	171.027	105.450	158.864
431.000	862.992	3	1	1	183.962	105.450	158.864
431.000	863.992	3	1	1	202.504	105.450	158.864
431.444	864.888	3	1	1	188.807	105.450	158.864
431.891	865.783	3	1	1	184.350	105.450	158.864
432.339	866.677	3	1	1	185.690	105.450	158.864
432.786	867.572	3	1	1	201.815	105.450	158.864
433.233	868.466	3	1	1	202.214	105.450	158.864
433.680	869.360	3	1	1	185.556	105.450	158.864
434.209	870.209	3	1	1	177.138	105.450	158.864
434.916	870.916	3	1	1	179.161	105.450	158.864
435.000	871.913	3	1	1	170.217	105.450	158.864
435.000	872.913	3	1	1	169.218	105.450	158.864
435.996	873.000	3	1	1	171.175	105.450	158.864
436.000	874.000	3	1	1	184.470	105.450	158.864
436.000	875.000	3	1	1	186.546	105.450	158.864
436.447	875.894	3	1	1	192.816	105.450	158.864
436.894	876.789	3	1	1	187.242	105.450	158.864
437.547	877.547	3	1	1	189.643	105.450	158.864
438.000	878.438	3	1	1	181.984	105.450	158.864
438.208	879.416	3	1	1	191.954	105.450	158.864
438.655	880.311	3	1	1	186.686	105.450	158.864
439.103	881.205	3	1	1	198.245	105.450	158.864
439.550	882.100	3	1	1	196.860	105.450	158.864
439.997	882.994	3	1	1	183.562	105.450	158.864
440.703	883.703	3	1	1	168.975	105.450	158.864
441.265	884.530	3	1	1	173.699	105.450	158.864
441.712	885.424	3	1	1	177.130	105.450	158.864
442.260	886.260	3	1	1	188.439	105.450	158.864
442.967	886.967	3	1	1	183.767	105.450	158.864
443.000	887.967	3	1	1	177.801	105.450	158.864
443.690	888.690	3	1	1	180.648	105.450	158.864
444.397	889.397	3	1	1	185.821	105.450	158.864
445.000	890.196	3	1	1	174.793	105.450	158.864
445.179	891.179	3	1	1	176.484	105.450	158.864
445.886	891.886	3	1	1	178.941	105.450	158.864
446.379	892.757	3	1	1	176.168	105.450	158.864
446.826	893.651	3	1	1	173.160	105.450	158.864
447.000	894.636	3	1	1	177.202	105.450	158.864
447.296	895.591	3	1	1	172.580	105.450	158.864
447.743	896.486	3	1	1	176.352	105.450	158.864
448.190	897.380	3	1	1	188.639	105.450	158.864
448.637	898.275	3	1	1	186.283	105.450	158.864
449.000	899.207	3	1	1	181.055	105.450	158.864
449.000	900.207	3	1	1	190.804	105.450	158.864
449.189	901.189	3	1	1	179.670	105.450	158.864
449.896	901.896	3	1	1	176.266	105.450	158.864
450.000	902.890	3	1	1	183.598	105.450	158.864
450.000	903.890	3	1	1	176.937	105.450	158.864
450.000	904.890	3	1	1	178.043	105.450	158.864
450.000	905.890	3	1	1	184.995	105.450	158.864
450.000	906.890	3	1	1	189.825	105.450	158.864
450.403	907.806	3	1	1	190.348	105.450	158.864
450.850	908.700	3	1	1	180.675	105.450	158.864
451.000	909.689	3	1	1	183.778	105.450	158.864
451.000	910.689	3	1	1	181.443	105.450	158.864
451.534	911.534	3	1	1	188.780	105.450	158.864
452.158	912.316	3	1	1	175.391	105.450	158.864
452.605	913.210	3	1	1	186.741	105.450	158.864
453.000	914.129	3	1	1	185.376	105.450	158.864
453.000	915.129	3	1	1	200.461	105.450	158.864
453.121	916.121	3	1	1	198.473	105.450	158.864
453.829	916.829	3	1	1	188.248	105.450	158.864
454.000	917.814	3	1	1	196.423	105.450	158.864
454.000	918.814	3	1	1	197.657	105.450	158.864
454.000	919.814	3	1	1	178.241	105.450	158.864
454.000	920.814	3	1	1	178.334	105.450	158.864
454.608	921.608	3	1	1	182.628	105.450	158.864
455.000	922.528	3	1	1	178.203	105.450	158.864
455.000	923.528	3	1	1	158.143	105.450	158.864
455.000	924.528	3	1	1	166.055	105.450	158.864
455.000	925.528	3	1	1	172.584	105.450	158.864
455.430	926.430	3	1	1	174.023	105.450	158.864
456.137	927.138	3	1	1	178.641	105.450	158.864
456.845	927.845	3	1	1	183.167	105.450	158.864
457.000	928.832	3	1	1	177.995	105.450	158.864
457.618	929.618	3	1	1	188.148	105.450	158.864
458.325	930.325	3	1	1	188.657	105.450	158.864
459.064	931.000	3	1	1	183.337	105.450	158.864
460.062	931.062	3	1	1	181.623	105.450	158.864
460.769	931.769	3	1	1	183.060	105.450	158.864
461.476	932.476	3	1	1	173.405	105.450	158.864
462.328	933.000	3	1	1	183.487	105.450	158.864
463.000	933.740	3	1	1	181.245	105.450	158.864
463.565	934.565	3	1	1	190.631	105.450	158.864
464.272	935.272	3	1	1	186.650	105.450	158.864
464.979	935.979	3	1	1	179.220	105.450	158.864
465.687	936.687	3	1	1	182.518	105.450	158.864
466.255	937.509	3	1	1	189.940	105.450	158.864
466.702	938.404	3	1	1	190.486	105.450	158.864
467.244	939.244	3	1	1	183.724	105.450	158.864
467.951	939.951	3	1	1	200.393	105.450	158.864
468.418	940.836	3	1	1	201.157	105.450	158.864
468.865	941.730	3	1	1	187.488	105.450	158.864
469.501	942.501	3	1	1	195.341	105.450	158.864
470.209	943.209	3	1	1	194.512	105.450	158.864
470.916	943.916	3	1	1	185.581	105.450	158.864
471.396	944.793	3	1	1	182.489	105.450	158.864
471.844	945.687	3	1	1	182.201	105.450	158.864
472.468	946.468	3	1	1	183.605	105.450	158.864
473.115	947.230	3	1	1	184.290	105.450	158.864
473.562	948.125	3	1	1	188.343	105.450	158.864
474.010	949.019	3	1	1	198.053	105.450	158.864
474.457	949.914	3	1	1	189.001	105.450	158.864
474.904	950.808	3	1	1	184.560	105.450	158.864
475.351	951.703	3	1	1	194.216	105.450	158.864
475.798	952.597	3	1	1	193.298	105.450	158.864
476.398	953.398	3	1	1	183.070	105.450	158.864
477.069	954.138	3	1	1	187.119	105.450	158.864
477.516	955.033	3	1	1	194.280	105.450	158.864
477.964	955.927	3	1	1	195.276	105.450	158.864
478.000	956.927	3	1	1	181.395	105.450	158.864
478.669	957.669	3	1	1	174.518	105.450	158.864
479.377	958.377	3	1	1	173.845	105.450	158.864
480.000	959.159	3	1	1	175.591	105.450	158.864
480.078	960.156	3	1	1	163.070	105.450	158.864
480.525	961.050	3	1	1	173.484	105.450	158.864
480.972	961.944	3	1	1	175.634	105.450	158.864
481.665	962.665	3	1	1	180.106	105.450	158.864
482.372	963.372	3	1	1	193.165	105.450	158.864
483.000	964.151	3	1	1	189.681	105.450	158.864
483.141	965.141	3	1	1	202.586	105.450	158.864
483.848	965.848	3	1	1	204.640	105.450	158.864
484.355	966.710	3	1	1	187.978	105.450	158.864
484.802	967.604	3	1	1	199.317	105.450	158.864
485.403	968.403	3	1	1	203.958	105.450	158.864
486.111	969.111	3	1	1	209.788	105.450	158.864
486.818	969.818	3	1	1	225.091	105.450	158.864
487.525	970.525	3	1	1	210.019	105.450	158.864
488.152	971.304	3	1	1	211.722	105.450	158.864
488.599	972.198	3	1	1	213.585	105.450	158.864
489.197	973.000	3	1	1	215.354	105.450	158.864
490.150	973.301	3	1	1	201.953	105.450	158.864
490.598	974.195	3	1	1	188.784	105.450	158.864
491.191	975.000	3	1	1	200.375	105.450	158.864
492.000	975.587	3	1	1	190.723	105.450	158.864
492.000	976.587	3	1	1	192.950	105.450	158.864
492.470	977.470	3	1	1	205.134	105.450	158.864
493.000	978.318	3	1	1	204.319	105.450	158.864
493.279	979.279	3	1	1	220.369	105.450	158.864
493.986	979.986	3	1	1	214.512	105.450	158.864
494.000	980.986	3	1	1	218.878	105.450	158.864
494.000	981.986	3	1	1	257.346	105.450	158.864
494.700	982.700	3	1	1	264.055	105.450	158.864
495.407	983.407	3	1	1	258.181	105.450	158.864
496.075	984.151	3	1	1	226.105	105.450	158.864
496.523	985.045	3	1	1	222.731	105.450	158.864
496.970	985.940	3	1	1	208.520	105.450	158.864
497.662	986.662	3	1	1	199.247	105.450	158.864
498.239	987.478	3	1	1	202.649	105.450	158.864
498.686	988.373	3	1	1	203.061	105.450	158.864
499.219	989.219	3	1	1	201.260	105.450	158.864
499.926	989.926	3	1	1	213.075	105.450	158.864
500.633	990.633	3	1	1	206.636	105.450	158.864
501.340	991.340	3	1	1	203.421	105.450	158.864
502.047	992.047	3	1	1	205.926	105.450	158.864
502.754	992.754	3	1	1	207.153	105.450	158.864
503.297	993.594	3	1	1	217.537	105.450	158.864
503.744	994.489	3	1	1	217.198	105.450	158.864
504.312	995.312	3	1	1	218.854	105.450	158.864
505.019	996.019	3	1	1	236.455	105.450	158.864
505.726	996.726	3	1	1	232.805	105.450	158.864
506.433	997.433	3	1	1	231.671	105.450	158.864
507.093	998.185	3	1	1	224.275	105.450	158.864
507.540	999.080	3	1	1	209.335	105.450	158.864
507.987	999.974	3	1	1	209.970	105.450	158.864
508.688	1000.688	3	1	1	211.514	105.450	158.864
509.395	1001.395	3	1	1	205.166	105.450	158.864
510.067	1002.135	3	1	1	187.989	105.450	158.864
510.515	1003.029	3	1	1	194.692	105.450	158.864
510.962	1003.924	3	1	1	193.802	105.450	158.864
511.650	1004.650	3	1	1	186.102	105.450	158.864
512.357	1005.357	3	1	1	183.514	105.450	158.864
513.064	1006.064	3	1	1	186.789	105.450	158.864
513.771	1006.771	3	1	1	186.593	105.450	158.864
514.478	1007.478	3	1	1	189.450	105.450	158.864
515.122	1008.243	3	1	1	188.940	105.450	158.864
515.569	1009.138	3	1	1	183.177	105.450	158.864
516.040	1010.020	3	1	1	179.587	105.450	158.864
516.934	1010.467	3	1	1	189.768	105.450	158.864
517.829	1010.914	3	1	1	183.155	105.450	158.864
518.674	1011.449	3	1	1	176.096	105.450	158.864
519.506	1012.004	3	1	1	181.222	105.450	158.864
520.338	1012.558	3	1	1	174.492	105.450	158.864
521.147	1013.147	3	1	1	179.813	105.450	158.864
521.854	1013.854	3	1	1	181.947	105.450	158.864
522.561	1014.561	3	1	1	183.529	105.450	158.864
523.350	1015.175	3	1	1	209.058	105.450	158.864
524.244	1015.622	3	1	1	213.125	105.450	158.864
525.115	1016.115	3	1	1	215.818	105.450	158.864
525.822	1016.822	3	1	1	218.511	105.450	158.864
526.529	1017.529	3	1	1	211.996	105.450	158.864
527.236	1018.236	3	1	1	197.051	105.450	158.864
527.943	1018.943	3	1	1	203.958	105.450	158.864
528.650	1019.650	3	1	1	184.782	105.450	158.864
529.357	1020.357	3	1	1	189.889	105.450	158.864
530.064	1021.064	3	1	1	180.377	105.450	158.864
530.771	1021.771	3	1	1	193.081	105.450	158.864
531.479	1022.479	3	1	1	197.209	105.450	158.864
532.244	1023.122	3	1	1	202.562	105.450	158.864
533.139	1023.569	3	1	1	200.333	105.450	158.864
534.027	1024.027	3	1	1	203.437	105.450	158.864
534.734	1024.734	3	1	1	198.756	105.450	158.864
535.442	1025.442	3	1	1	194.747	105.450	158.864
536.149	1026.149	3	1	1	196.568	105.450	158.864
536.856	1026.856	3	1	1	196.731	105.450	158.864
537.845	1027.000	3	1	1	196.584	105.450	158.864
538.626	1027.626	3	1	1	204.782	105.450	158.864
539.333	1028.333	3	1	1	197.386	105.450	158.864
540.040	1029.040	3	1	1	191.003	105.450	158.864
540.747	1029.747	3	1	1	194.484	105.450	158.864
541.454	1030.454	3	1	1	197.863	105.450	158.864
542.161	1031.161	3	1	1	188.304	105.450	158.864
542.868	1031.868	3	1	1	197.608	105.450	158.864
543.575	1032.575	3	1	1	213.252	105.450	158.864
544.481	1033.000	3	1	1	228.399	105.450	158.864
545.398	1033.398	3	1	1	232.335	105.450	158.864
546.000	1034.197	3	1	1	224.901	105.450	158.864
546.595	1035.000	3	1	1	216.847	105.450	158.864
547.475	1035.475	3	1	1	220.388	105.450	158.864
548.182	1036.182	3	1	1	230.352	105.450	158.864
548.889	1036.889	3	1	1	204.753	105.450	158.864
549.597	1037.597	3	1	1	193.339	105.450	158.864
550.304	1038.304	3	1	1	187.245	105.450	158.864
551.011	1039.011	3	1	1	180.384	105.450	158.864
551.718	1039.718	3	1	1	201.497	105.450	158.864
552.425	1040.425	3	1	1	202.260	105.450	158.864
553.132	1041.132	3	1	1	199.992	105.450	158.864
553.839	1041.839	3	1	1	206.025	105.450	158.864
554.546	1042.546	3	1	1	221.844	105.450	158.864
555.331	1043.166	3	1	1	211.591	105.450	158.864
556.226	1043.613	3	1	1	211.641	105.450	158.864
557.099	1044.099	3	1	1	209.462	105.450	158.864
557.807	1044.807	3	1	1	194.678	105.450	158.864
558.514	1045.514	3	1	1	198.213	105.450	158.864
559.221	1046.221	3	1	1	198.986	105.450	158.864
559.928	1046.928	3	1	1	198.243	105.450	158.864
560.000	1047.925	3	1	1	207.245	105.450	158.864
560.669	1048.669	3	1	1	216.488	105.450	158.864
561.000	1049.612	3	1	1	212.412	105.450	158.864
561.922	1050.000	3	1	1	230.690	105.450	158.864
562.000	1050.997	3	1	1	234.864	105.450	158.864
562.000	1051.997	3	1	1	232.357	105.450	158.864
562.706	1052.706	3	1	1	233.531	105.450	158.864
563.661	1053.000	3	1	1	237.110	105.450	158.864
564.000	1053.941	3	1	1	224.492	105.450	158.864
564.677	1054.677	3	1	1	227.206	105.450	158.864
565.384	1055.384	3	1	1	214.998	105.450	158.864
566.091	1056.091	3	1	1	220.281	105.450	158.864
566.798	1056.798	3	1	1	222.841	105.450	158.864
567.000	1057.778	3	1	1	232.347	105.450	158.864
567.975	1058.000	3	1	1	234.645	105.450	158.864
568.000	1059.000	3	1	1	230.431	105.450	158.864
569.000	1059.000	3	1	1	203.670	105.450	158.864
569.000	1060.000	3	1	1	223.841	105.450	158.864
570.000	1060.000	3	1	1	225.508	105.450	158.864
570.000	1061.000	3	1	1	223.049	105.450	158.864
570.000	1062.000	3	1	1	218.074	105.450	158.864
569.000	1062.000	3	1	1	188.345	105.450	158.864
568.000	1062.000	3	1	1	201.609	105.450	158.864
					186.374		
