X	Y	C	Z	T	Intensity	BG	MX
429.000	451.000	3	1	1	133.328	105.769	132.444
428.000	451.000	3	1	1	130.417	105.769	132.444
428.000	452.000	3	1	1	136.455	105.769	132.444
427.072	452.371	3	1	1	135.497	105.769	132.444
426.143	452.743	3	1	1	132.580	105.769	132.444
425.215	453.114	3	1	1	130.814	105.769	132.444
424.286	453.486	3	1	1	125.192	105.769	132.444
423.358	453.857	3	1	1	123.559	105.769	132.444
422.551	454.449	3	1	1	125.515	105.769	132.444
421.844	455.156	3	1	1	118.692	105.769	132.444
421.137	455.863	3	1	1	116.558	105.769	132.444
420.636	456.728	3	1	1	119.192	105.769	132.444
420.189	457.623	3	1	1	112.335	105.769	132.444
419.582	458.418	3	1	1	115.133	105.769	132.444
419.000	459.231	3	1	1	112.585	105.769	132.444
418.791	460.209	3	1	1	110.504	105.769	132.444
418.084	460.916	3	1	1	111.168	105.769	132.444
418.000	461.912	3	1	1	110.767	105.769	132.444
418.000	462.912	3	1	1	117.673	105.769	132.444
418.000	463.912	3	1	1	108.430	105.769	132.444
418.000	464.912	3	1	1	113.751	105.769	132.444
418.000	465.912	3	1	1	118.489	105.769	132.444
418.000	466.912	3	1	1	123.714	105.769	132.444
418.000	467.912	3	1	1	120.496	105.769	132.444
418.000	468.912	3	1	1	128.281	105.769	132.444
418.000	469.912	3	1	1	123.407	105.769	132.444
418.000	470.912	3	1	1	125.339	105.769	132.444
418.000	471.912	3	1	1	125.072	105.769	132.444
418.000	472.912	3	1	1	119.933	105.769	132.444
418.000	473.912	3	1	1	121.125	105.769	132.444
418.000	474.912	3	1	1	122.831	105.769	132.444
418.000	475.912	3	1	1	120.620	105.769	132.444
418.000	476.912	3	1	1	122.272	105.769	132.444
418.000	477.912	3	1	1	118.009	105.769	132.444
417.338	478.662	3	1	1	115.411	105.769	132.444
417.000	479.603	3	1	1	116.761	105.769	132.444
417.000	480.603	3	1	1	118.745	105.769	132.444
417.000	481.603	3	1	1	118.553	105.769	132.444
417.000	482.603	3	1	1	117.522	105.769	132.444
417.000	483.603	3	1	1	122.363	105.769	132.444
417.000	484.603	3	1	1	123.510	105.769	132.444
417.000	485.603	3	1	1	118.443	105.769	132.444
416.719	486.563	3	1	1	113.441	105.769	132.444
416.272	487.457	3	1	1	114.530	105.769	132.444
416.000	488.419	3	1	1	121.414	105.769	132.444
416.000	489.419	3	1	1	123.592	105.769	132.444
416.000	490.419	3	1	1	124.183	105.769	132.444
415.800	491.399	3	1	1	122.386	105.769	132.444
415.353	492.294	3	1	1	121.222	105.769	132.444
414.845	493.155	3	1	1	125.435	105.769	132.444
414.138	493.862	3	1	1	122.805	105.769	132.444
414.000	494.853	3	1	1	121.150	105.769	132.444
413.613	495.775	3	1	1	117.833	105.769	132.444
413.166	496.669	3	1	1	115.295	105.769	132.444
413.000	497.655	3	1	1	109.983	105.769	132.444
412.487	498.513	3	1	1	111.435	105.769	132.444
411.780	499.220	3	1	1	117.504	105.769	132.444
411.072	499.928	3	1	1	112.272	105.769	132.444
410.596	500.807	3	1	1	110.215	105.769	132.444
410.149	501.701	3	1	1	114.789	105.769	132.444
409.521	502.479	3	1	1	119.899	105.769	132.444
409.000	503.333	3	1	1	122.478	105.769	132.444
409.000	504.333	3	1	1	118.410	105.769	132.444
408.840	505.320	3	1	1	119.155	105.769	132.444
408.393	506.214	3	1	1	114.981	105.769	132.444
408.000	507.134	3	1	1	115.311	105.769	132.444
408.000	508.134	3	1	1	117.218	105.769	132.444
408.000	509.134	3	1	1	112.520	105.769	132.444
408.000	510.134	3	1	1	121.037	105.769	132.444
408.000	511.134	3	1	1	117.327	105.769	132.444
408.066	512.132	3	1	1	124.451	105.769	132.444
408.513	513.026	3	1	1	125.519	105.769	132.444
408.960	513.921	3	1	1	136.909	105.769	132.444
409.000	514.920	3	1	1	136.192	105.769	132.444
409.000	515.920	3	1	1	128.073	105.769	132.444
409.000	516.920	3	1	1	133.063	105.769	132.444
409.000	517.920	3	1	1	132.758	105.769	132.444
409.000	518.920	3	1	1	129.032	105.769	132.444
409.000	519.920	3	1	1	126.543	105.769	132.444
409.000	520.920	3	1	1	129.069	105.769	132.444
409.000	521.920	3	1	1	127.502	105.769	132.444
409.000	522.920	3	1	1	122.463	105.769	132.444
409.000	523.920	3	1	1	128.129	105.769	132.444
409.000	524.920	3	1	1	116.093	105.769	132.444
408.585	525.830	3	1	1	124.476	105.769	132.444
408.138	526.724	3	1	1	118.827	105.769	132.444
408.000	527.715	3	1	1	121.636	105.769	132.444
408.000	528.715	3	1	1	122.001	105.769	132.444
408.000	529.715	3	1	1	125.531	105.769	132.444
408.000	530.715	3	1	1	133.997	105.769	132.444
407.450	531.550	3	1	1	134.351	105.769	132.444
407.000	532.443	3	1	1	134.829	105.769	132.444
407.000	533.443	3	1	1	123.774	105.769	132.444
407.000	534.443	3	1	1	116.929	105.769	132.444
406.629	535.371	3	1	1	120.346	105.769	132.444
406.000	536.149	3	1	1	117.684	105.769	132.444
405.927	537.146	3	1	1	115.071	105.769	132.444
405.480	538.041	3	1	1	114.692	105.769	132.444
405.032	538.935	3	1	1	118.265	105.769	132.444
404.342	539.658	3	1	1	114.325	105.769	132.444
403.763	540.474	3	1	1	122.526	105.769	132.444
403.316	541.368	3	1	1	118.578	105.769	132.444
402.784	542.216	3	1	1	116.892	105.769	132.444
402.077	542.923	3	1	1	116.513	105.769	132.444
401.599	543.801	3	1	1	117.901	105.769	132.444
401.152	544.696	3	1	1	117.427	105.769	132.444
401.000	545.684	3	1	1	121.504	105.769	132.444
400.469	546.531	3	1	1	118.778	105.769	132.444
400.000	547.414	3	1	1	120.995	105.769	132.444
399.189	548.000	3	1	1	121.783	105.769	132.444
399.000	548.982	3	1	1	132.984	105.769	132.444
398.302	549.698	3	1	1	136.370	105.769	132.444
397.476	550.262	3	1	1	132.925	105.769	132.444
396.582	550.709	3	1	1	128.577	105.769	132.444
395.744	551.256	3	1	1	126.296	105.769	132.444
395.037	551.963	3	1	1	117.678	105.769	132.444
394.575	552.850	3	1	1	113.716	105.769	132.444
394.128	553.744	3	1	1	110.108	105.769	132.444
393.488	554.512	3	1	1	113.133	105.769	132.444
392.781	555.219	3	1	1	116.088	105.769	132.444
392.074	555.926	3	1	1	118.670	105.769	132.444
392.000	556.924	3	1	1	122.073	105.769	132.444
391.584	557.833	3	1	1	115.093	105.769	132.444
391.136	558.727	3	1	1	123.039	105.769	132.444
390.501	559.499	3	1	1	126.079	105.769	132.444
389.865	560.271	3	1	1	126.564	105.769	132.444
389.417	561.165	3	1	1	123.993	105.769	132.444
388.979	562.064	3	1	1	124.657	105.769	132.444
388.662	563.013	3	1	1	121.332	105.769	132.444
388.346	563.961	3	1	1	119.491	105.769	132.444
388.030	564.910	3	1	1	117.809	105.769	132.444
387.595	565.810	3	1	1	117.444	105.769	132.444
387.148	566.705	3	1	1	118.823	105.769	132.444
386.700	567.599	3	1	1	119.376	105.769	132.444
386.253	568.494	3	1	1	123.309	105.769	132.444
385.806	569.388	3	1	1	120.886	105.769	132.444
385.359	570.283	3	1	1	115.548	105.769	132.444
384.854	571.146	3	1	1	117.166	105.769	132.444
384.147	571.853	3	1	1	118.058	105.769	132.444
383.642	572.716	3	1	1	112.064	105.769	132.444
383.195	573.610	3	1	1	119.563	105.769	132.444
383.000	574.591	3	1	1	115.018	105.769	132.444
383.000	575.591	3	1	1	118.116	105.769	132.444
382.724	576.552	3	1	1	122.629	105.769	132.444
382.277	577.447	3	1	1	128.303	105.769	132.444
381.721	578.279	3	1	1	132.104	105.769	132.444
381.014	578.986	3	1	1	136.574	105.769	132.444
380.307	579.693	3	1	1	139.283	105.769	132.444
379.813	580.562	3	1	1	144.760	105.769	132.444
379.496	581.511	3	1	1	138.280	105.769	132.444
379.180	582.459	3	1	1	137.536	105.769	132.444
379.000	583.443	3	1	1	128.854	105.769	132.444
379.000	584.443	3	1	1	127.454	105.769	132.444
378.790	585.421	3	1	1	135.958	105.769	132.444
378.342	586.315	3	1	1	127.683	105.769	132.444
377.828	587.172	3	1	1	126.977	105.769	132.444
377.121	587.879	3	1	1	118.422	105.769	132.444
377.000	588.872	3	1	1	118.190	105.769	132.444
377.000	589.872	3	1	1	119.149	105.769	132.444
377.992	590.000	3	1	1	120.257	105.769	132.444
378.992	590.000	3	1	1	117.030	105.769	132.444
