X	Y	C	Z	T	Intensity	BG	MX
429.000	451.000	2	1	1	115.664	100.540	374.539
428.000	451.000	2	1	1	109.204	100.540	374.539
428.000	452.000	2	1	1	112.360	100.540	374.539
427.072	452.371	2	1	1	111.180	100.540	374.539
426.143	452.743	2	1	1	109.063	100.540	374.539
425.215	453.114	2	1	1	111.231	100.540	374.539
424.286	453.486	2	1	1	105.621	100.540	374.539
423.358	453.857	2	1	1	103.142	100.540	374.539
422.551	454.449	2	1	1	109.501	100.540	374.539
421.844	455.156	2	1	1	108.712	100.540	374.539
421.137	455.863	2	1	1	107.543	100.540	374.539
420.636	456.728	2	1	1	107.697	100.540	374.539
420.189	457.623	2	1	1	106.422	100.540	374.539
419.582	458.418	2	1	1	107.744	100.540	374.539
419.000	459.231	2	1	1	107.250	100.540	374.539
418.791	460.209	2	1	1	107.035	100.540	374.539
418.084	460.916	2	1	1	108.314	100.540	374.539
418.000	461.912	2	1	1	105.649	100.540	374.539
418.000	462.912	2	1	1	107.917	100.540	374.539
418.000	463.912	2	1	1	104.234	100.540	374.539
418.000	464.912	2	1	1	106.601	100.540	374.539
418.000	465.912	2	1	1	111.116	100.540	374.539
418.000	466.912	2	1	1	104.007	100.540	374.539
418.000	467.912	2	1	1	108.608	100.540	374.539
418.000	468.912	2	1	1	105.489	100.540	374.539
418.000	469.912	2	1	1	105.000	100.540	374.539
418.000	470.912	2	1	1	107.375	100.540	374.539
418.000	471.912	2	1	1	109.749	100.540	374.539
418.000	472.912	2	1	1	108.510	100.540	374.539
418.000	473.912	2	1	1	106.243	100.540	374.539
418.000	474.912	2	1	1	106.897	100.540	374.539
418.000	475.912	2	1	1	107.599	100.540	374.539
418.000	476.912	2	1	1	101.110	100.540	374.539
418.000	477.912	2	1	1	110.536	100.540	374.539
417.338	478.662	2	1	1	111.838	100.540	374.539
417.000	479.603	2	1	1	110.756	100.540	374.539
417.000	480.603	2	1	1	109.816	100.540	374.539
417.000	481.603	2	1	1	104.846	100.540	374.539
417.000	482.603	2	1	1	106.343	100.540	374.539
417.000	483.603	2	1	1	105.652	100.540	374.539
417.000	484.603	2	1	1	103.408	100.540	374.539
417.000	485.603	2	1	1	104.769	100.540	374.539
416.719	486.563	2	1	1	110.871	100.540	374.539
416.272	487.457	2	1	1	112.143	100.540	374.539
416.000	488.419	2	1	1	109.099	100.540	374.539
416.000	489.419	2	1	1	106.658	100.540	374.539
416.000	490.419	2	1	1	111.323	100.540	374.539
415.800	491.399	2	1	1	108.076	100.540	374.539
415.353	492.294	2	1	1	106.451	100.540	374.539
414.845	493.155	2	1	1	111.324	100.540	374.539
414.138	493.862	2	1	1	105.768	100.540	374.539
414.000	494.853	2	1	1	108.169	100.540	374.539
413.613	495.775	2	1	1	109.103	100.540	374.539
413.166	496.669	2	1	1	109.248	100.540	374.539
413.000	497.655	2	1	1	108.284	100.540	374.539
412.487	498.513	2	1	1	111.118	100.540	374.539
411.780	499.220	2	1	1	110.646	100.540	374.539
411.072	499.928	2	1	1	106.976	100.540	374.539
410.596	500.807	2	1	1	111.286	100.540	374.539
410.149	501.701	2	1	1	108.122	100.540	374.539
409.521	502.479	2	1	1	105.864	100.540	374.539
409.000	503.333	2	1	1	105.305	100.540	374.539
409.000	504.333	2	1	1	108.474	100.540	374.539
408.840	505.320	2	1	1	105.802	100.540	374.539
408.393	506.214	2	1	1	106.167	100.540	374.539
408.000	507.134	2	1	1	114.084	100.540	374.539
408.000	508.134	2	1	1	107.583	100.540	374.539
408.000	509.134	2	1	1	108.907	100.540	374.539
408.000	510.134	2	1	1	106.294	100.540	374.539
408.000	511.134	2	1	1	110.165	100.540	374.539
408.066	512.132	2	1	1	104.893	100.540	374.539
408.513	513.026	2	1	1	110.035	100.540	374.539
408.960	513.921	2	1	1	109.891	100.540	374.539
409.000	514.920	2	1	1	109.311	100.540	374.539
409.000	515.920	2	1	1	103.626	100.540	374.539
409.000	516.920	2	1	1	105.415	100.540	374.539
409.000	517.920	2	1	1	112.620	100.540	374.539
409.000	518.920	2	1	1	105.459	100.540	374.539
409.000	519.920	2	1	1	116.805	100.540	374.539
409.000	520.920	2	1	1	110.703	100.540	374.539
409.000	521.920	2	1	1	113.655	100.540	374.539
409.000	522.920	2	1	1	106.072	100.540	374.539
409.000	523.920	2	1	1	109.307	100.540	374.539
409.000	524.920	2	1	1	109.707	100.540	374.539
408.585	525.830	2	1	1	109.771	100.540	374.539
408.138	526.724	2	1	1	110.025	100.540	374.539
408.000	527.715	2	1	1	111.282	100.540	374.539
408.000	528.715	2	1	1	112.656	100.540	374.539
408.000	529.715	2	1	1	114.272	100.540	374.539
408.000	530.715	2	1	1	114.145	100.540	374.539
407.450	531.550	2	1	1	111.742	100.540	374.539
407.000	532.443	2	1	1	110.818	100.540	374.539
407.000	533.443	2	1	1	111.274	100.540	374.539
407.000	534.443	2	1	1	110.388	100.540	374.539
406.629	535.371	2	1	1	107.809	100.540	374.539
406.000	536.149	2	1	1	111.250	100.540	374.539
405.927	537.146	2	1	1	105.708	100.540	374.539
405.480	538.041	2	1	1	109.056	100.540	374.539
405.032	538.935	2	1	1	111.883	100.540	374.539
404.342	539.658	2	1	1	107.739	100.540	374.539
403.763	540.474	2	1	1	104.456	100.540	374.539
403.316	541.368	2	1	1	108.298	100.540	374.539
402.784	542.216	2	1	1	110.360	100.540	374.539
402.077	542.923	2	1	1	107.670	100.540	374.539
401.599	543.801	2	1	1	105.816	100.540	374.539
401.152	544.696	2	1	1	113.688	100.540	374.539
401.000	545.684	2	1	1	110.600	100.540	374.539
400.469	546.531	2	1	1	110.488	100.540	374.539
400.000	547.414	2	1	1	114.831	100.540	374.539
399.189	548.000	2	1	1	111.677	100.540	374.539
399.000	548.982	2	1	1	114.850	100.540	374.539
398.302	549.698	2	1	1	112.644	100.540	374.539
397.476	550.262	2	1	1	109.577	100.540	374.539
396.582	550.709	2	1	1	108.272	100.540	374.539
395.744	551.256	2	1	1	109.720	100.540	374.539
395.037	551.963	2	1	1	109.770	100.540	374.539
394.575	552.850	2	1	1	107.448	100.540	374.539
394.128	553.744	2	1	1	108.643	100.540	374.539
393.488	554.512	2	1	1	110.973	100.540	374.539
392.781	555.219	2	1	1	112.625	100.540	374.539
392.074	555.926	2	1	1	108.524	100.540	374.539
392.000	556.924	2	1	1	110.425	100.540	374.539
391.584	557.833	2	1	1	113.975	100.540	374.539
391.136	558.727	2	1	1	108.371	100.540	374.539
390.501	559.499	2	1	1	110.962	100.540	374.539
389.865	560.271	2	1	1	111.648	100.540	374.539
389.417	561.165	2	1	1	109.744	100.540	374.539
388.979	562.064	2	1	1	106.838	100.540	374.539
388.662	563.013	2	1	1	105.451	100.540	374.539
388.346	563.961	2	1	1	110.290	100.540	374.539
388.030	564.910	2	1	1	107.976	100.540	374.539
387.595	565.810	2	1	1	107.889	100.540	374.539
387.148	566.705	2	1	1	110.279	100.540	374.539
386.700	567.599	2	1	1	108.196	100.540	374.539
386.253	568.494	2	1	1	107.486	100.540	374.539
385.806	569.388	2	1	1	114.078	100.540	374.539
385.359	570.283	2	1	1	113.956	100.540	374.539
384.854	571.146	2	1	1	111.372	100.540	374.539
384.147	571.853	2	1	1	107.892	100.540	374.539
383.642	572.716	2	1	1	107.452	100.540	374.539
383.195	573.610	2	1	1	110.680	100.540	374.539
383.000	574.591	2	1	1	107.756	100.540	374.539
383.000	575.591	2	1	1	106.331	100.540	374.539
382.724	576.552	2	1	1	103.246	100.540	374.539
382.277	577.447	2	1	1	106.713	100.540	374.539
381.721	578.279	2	1	1	110.126	100.540	374.539
381.014	578.986	2	1	1	108.915	100.540	374.539
380.307	579.693	2	1	1	110.705	100.540	374.539
379.813	580.562	2	1	1	110.827	100.540	374.539
379.496	581.511	2	1	1	106.211	100.540	374.539
379.180	582.459	2	1	1	109.777	100.540	374.539
379.000	583.443	2	1	1	106.020	100.540	374.539
379.000	584.443	2	1	1	103.276	100.540	374.539
378.790	585.421	2	1	1	107.799	100.540	374.539
378.342	586.315	2	1	1	112.444	100.540	374.539
377.828	587.172	2	1	1	111.078	100.540	374.539
377.121	587.879	2	1	1	104.748	100.540	374.539
377.000	588.872	2	1	1	103.736	100.540	374.539
377.000	589.872	2	1	1	108.649	100.540	374.539
377.992	590.000	2	1	1	109.491	100.540	374.539
378.992	590.000	2	1	1	108.669	100.540	374.539
