X	Y	C	Z	T	Intensity	BG	MX
135.750	111.500	3	1	1	160.329	104.334	352.070
134.850	111.937	3	1	1	160.975	104.334	352.070
133.951	112.374	3	1	1	161.579	104.334	352.070
133.051	112.811	3	1	1	157.353	104.334	352.070
132.152	113.248	3	1	1	154.351	104.334	352.070
131.252	113.685	3	1	1	164.663	104.334	352.070
130.353	114.121	3	1	1	163.037	104.334	352.070
129.453	114.558	3	1	1	161.527	104.334	352.070
128.554	114.995	3	1	1	159.123	104.334	352.070
127.654	115.432	3	1	1	161.803	104.334	352.070
126.801	115.953	3	1	1	167.185	104.334	352.070
126.100	116.667	3	1	1	165.136	104.334	352.070
125.400	117.380	3	1	1	152.576	104.334	352.070
124.699	118.094	3	1	1	161.414	104.334	352.070
123.999	118.808	3	1	1	161.235	104.334	352.070
123.298	119.521	3	1	1	158.022	104.334	352.070
122.598	120.235	3	1	1	162.410	104.334	352.070
121.897	120.949	3	1	1	166.043	104.334	352.070
121.197	121.662	3	1	1	163.729	104.334	352.070
120.497	122.376	3	1	1	153.420	104.334	352.070
119.796	123.090	3	1	1	152.348	104.334	352.070
119.096	123.804	3	1	1	155.482	104.334	352.070
118.395	124.517	3	1	1	165.669	104.334	352.070
117.695	125.231	3	1	1	163.426	104.334	352.070
116.994	125.945	3	1	1	156.142	104.334	352.070
116.294	126.658	3	1	1	159.507	104.334	352.070
115.593	127.372	3	1	1	158.136	104.334	352.070
114.893	128.086	3	1	1	157.019	104.334	352.070
114.192	128.799	3	1	1	157.341	104.334	352.070
113.548	129.564	3	1	1	160.115	104.334	352.070
113.008	130.406	3	1	1	152.536	104.334	352.070
112.468	131.248	3	1	1	155.370	104.334	352.070
111.928	132.089	3	1	1	155.646	104.334	352.070
111.388	132.931	3	1	1	153.170	104.334	352.070
110.848	133.773	3	1	1	155.345	104.334	352.070
110.308	134.614	3	1	1	154.130	104.334	352.070
109.768	135.456	3	1	1	154.948	104.334	352.070
109.228	136.298	3	1	1	147.593	104.334	352.070
108.688	137.139	3	1	1	160.178	104.334	352.070
108.148	137.981	3	1	1	154.480	104.334	352.070
107.608	138.822	3	1	1	155.671	104.334	352.070
107.068	139.664	3	1	1	157.354	104.334	352.070
106.528	140.506	3	1	1	158.127	104.334	352.070
105.988	141.347	3	1	1	151.309	104.334	352.070
105.448	142.189	3	1	1	157.275	104.334	352.070
104.908	143.031	3	1	1	151.582	104.334	352.070
104.381	143.880	3	1	1	153.201	104.334	352.070
103.893	144.753	3	1	1	149.351	104.334	352.070
103.406	145.627	3	1	1	148.851	104.334	352.070
102.918	146.500	3	1	1	138.020	104.334	352.070
102.430	147.373	3	1	1	146.415	104.334	352.070
101.943	148.246	3	1	1	144.527	104.334	352.070
101.455	149.119	3	1	1	153.039	104.334	352.070
100.968	149.992	3	1	1	149.660	104.334	352.070
100.480	150.865	3	1	1	139.608	104.334	352.070
99.993	151.738	3	1	1	143.949	104.334	352.070
99.505	152.611	3	1	1	147.753	104.334	352.070
99.017	153.484	3	1	1	143.282	104.334	352.070
98.530	154.357	3	1	1	144.480	104.334	352.070
98.042	155.230	3	1	1	142.409	104.334	352.070
97.555	156.104	3	1	1	141.757	104.334	352.070
97.087	156.987	3	1	1	138.031	104.334	352.070
96.635	157.879	3	1	1	143.356	104.334	352.070
96.183	158.771	3	1	1	142.123	104.334	352.070
95.731	159.664	3	1	1	143.250	104.334	352.070
95.279	160.556	3	1	1	143.682	104.334	352.070
94.827	161.448	3	1	1	133.816	104.334	352.070
94.376	162.340	3	1	1	134.725	104.334	352.070
93.924	163.232	3	1	1	143.609	104.334	352.070
93.472	164.124	3	1	1	133.437	104.334	352.070
93.020	165.016	3	1	1	135.398	104.334	352.070
92.568	165.908	3	1	1	135.918	104.334	352.070
92.116	166.800	3	1	1	135.007	104.334	352.070
91.664	167.692	3	1	1	131.189	104.334	352.070
91.213	168.585	3	1	1	130.735	104.334	352.070
90.792	169.492	3	1	1	127.579	104.334	352.070
90.537	170.459	3	1	1	132.949	104.334	352.070
90.282	171.426	3	1	1	131.501	104.334	352.070
90.027	172.393	3	1	1	127.474	104.334	352.070
89.772	173.360	3	1	1	133.452	104.334	352.070
89.518	174.327	3	1	1	133.394	104.334	352.070
89.263	175.294	3	1	1	129.008	104.334	352.070
89.008	176.260	3	1	1	119.048	104.334	352.070
88.753	177.227	3	1	1	127.762	104.334	352.070
88.498	178.194	3	1	1	128.482	104.334	352.070
88.243	179.161	3	1	1	127.810	104.334	352.070
87.989	180.128	3	1	1	127.151	104.334	352.070
87.734	181.095	3	1	1	132.275	104.334	352.070
87.479	182.062	3	1	1	135.404	104.334	352.070
87.224	183.029	3	1	1	124.436	104.334	352.070
86.969	183.996	3	1	1	116.179	104.334	352.070
86.715	184.963	3	1	1	125.170	104.334	352.070
86.460	185.930	3	1	1	125.146	104.334	352.070
86.205	186.897	3	1	1	122.745	104.334	352.070
85.950	187.864	3	1	1	120.655	104.334	352.070
85.695	188.831	3	1	1	127.537	104.334	352.070
85.441	189.798	3	1	1	124.009	104.334	352.070
85.186	190.765	3	1	1	123.784	104.334	352.070
84.931	191.732	3	1	1	120.434	104.334	352.070
84.676	192.699	3	1	1	117.180	104.334	352.070
84.421	193.666	3	1	1	117.486	104.334	352.070
84.372	194.665	3	1	1	118.858	104.334	352.070
84.430	195.663	3	1	1	118.056	104.334	352.070
84.488	196.662	3	1	1	117.023	104.334	352.070
84.546	197.660	3	1	1	114.226	104.334	352.070
84.603	198.658	3	1	1	119.839	104.334	352.070
84.661	199.657	3	1	1	121.706	104.334	352.070
84.719	200.655	3	1	1	115.095	104.334	352.070
84.777	201.653	3	1	1	118.761	104.334	352.070
84.835	202.652	3	1	1	121.285	104.334	352.070
84.893	203.650	3	1	1	117.068	104.334	352.070
84.951	204.648	3	1	1	116.351	104.334	352.070
85.028	205.645	3	1	1	115.426	104.334	352.070
85.220	206.627	3	1	1	116.853	104.334	352.070
85.412	207.608	3	1	1	112.142	104.334	352.070
85.604	208.589	3	1	1	113.187	104.334	352.070
85.796	209.571	3	1	1	113.401	104.334	352.070
85.988	210.552	3	1	1	119.106	104.334	352.070
86.180	211.534	3	1	1	116.978	104.334	352.070
86.373	212.515	3	1	1	114.817	104.334	352.070
86.565	213.496	3	1	1	117.948	104.334	352.070
86.757	214.478	3	1	1	113.287	104.334	352.070
86.949	215.459	3	1	1	109.881	104.334	352.070
87.141	216.441	3	1	1	110.572	104.334	352.070
87.344	217.420	3	1	1	115.515	104.334	352.070
87.563	218.395	3	1	1	113.359	104.334	352.070
87.782	219.371	3	1	1	116.532	104.334	352.070
88.001	220.347	3	1	1	116.047	104.334	352.070
88.220	221.323	3	1	1	114.525	104.334	352.070
88.439	222.298	3	1	1	112.692	104.334	352.070
88.658	223.274	3	1	1	118.735	104.334	352.070
88.877	224.250	3	1	1	115.613	104.334	352.070
89.097	225.225	3	1	1	116.560	104.334	352.070
89.316	226.201	3	1	1	115.710	104.334	352.070
89.535	227.177	3	1	1	109.069	104.334	352.070
89.754	228.153	3	1	1	109.085	104.334	352.070
89.973	229.128	3	1	1	112.852	104.334	352.070
90.283	230.079	3	1	1	110.956	104.334	352.070
90.605	231.026	3	1	1	105.554	104.334	352.070
90.928	231.972	3	1	1	106.970	104.334	352.070
91.251	232.919	3	1	1	111.607	104.334	352.070
91.573	233.865	3	1	1	112.962	104.334	352.070
91.896	234.812	3	1	1	115.381	104.334	352.070
92.219	235.758	3	1	1	110.517	104.334	352.070
92.541	236.705	3	1	1	116.757	104.334	352.070
92.864	237.651	3	1	1	111.677	104.334	352.070
93.187	238.598	3	1	1	108.882	104.334	352.070
93.509	239.544	3	1	1	108.199	104.334	352.070
93.829	240.492	3	1	1	108.740	104.334	352.070
94.141	241.442	3	1	1	111.415	104.334	352.070
94.453	242.392	3	1	1	109.125	104.334	352.070
94.766	243.342	3	1	1	106.862	104.334	352.070
95.078	244.292	3	1	1	110.632	104.334	352.070
95.390	245.242	3	1	1	112.440	104.334	352.070
95.702	246.192	3	1	1	110.599	104.334	352.070
96.014	247.142	3	1	1	116.141	104.334	352.070
96.326	248.092	3	1	1	117.424	104.334	352.070
96.638	249.042	3	1	1	117.998	104.334	352.070
96.950	249.992	3	1	1	116.414	104.334	352.070
97.262	250.942	3	1	1	112.155	104.334	352.070
97.622	251.875	3	1	1	111.047	104.334	352.070
98.128	252.738	3	1	1	112.159	104.334	352.070
98.634	253.600	3	1	1	116.451	104.334	352.070
99.140	254.463	3	1	1	112.471	104.334	352.070
99.646	255.326	3	1	1	116.000	104.334	352.070
100.152	256.188	3	1	1	117.841	104.334	352.070
100.658	257.051	3	1	1	116.742	104.334	352.070
101.163	257.913	3	1	1	115.308	104.334	352.070
101.669	258.776	3	1	1	111.968	104.334	352.070
102.175	259.638	3	1	1	109.944	104.334	352.070
102.681	260.501	3	1	1	111.455	104.334	352.070
103.187	261.364	3	1	1	113.289	104.334	352.070
103.693	262.226	3	1	1	111.052	104.334	352.070
104.230	263.070	3	1	1	110.688	104.334	352.070
104.815	263.881	3	1	1	112.348	104.334	352.070
105.400	264.692	3	1	1	111.114	104.334	352.070
105.985	265.503	3	1	1	111.009	104.334	352.070
106.570	266.314	3	1	1	115.123	104.334	352.070
107.154	267.125	3	1	1	115.971	104.334	352.070
107.739	267.937	3	1	1	113.672	104.334	352.070
108.324	268.748	3	1	1	109.614	104.334	352.070
108.909	269.559	3	1	1	113.942	104.334	352.070
109.494	270.370	3	1	1	115.721	104.334	352.070
110.078	271.181	3	1	1	112.796	104.334	352.070
110.663	271.992	3	1	1	114.481	104.334	352.070
111.248	272.804	3	1	1	114.210	104.334	352.070
111.839	273.611	3	1	1	116.650	104.334	352.070
112.463	274.392	3	1	1	115.597	104.334	352.070
113.088	275.172	3	1	1	115.938	104.334	352.070
113.713	275.953	3	1	1	119.559	104.334	352.070
114.337	276.734	3	1	1	112.655	104.334	352.070
114.962	277.515	3	1	1	113.602	104.334	352.070
115.587	278.296	3	1	1	116.147	104.334	352.070
116.211	279.077	3	1	1	111.600	104.334	352.070
116.836	279.858	3	1	1	111.647	104.334	352.070
117.461	280.638	3	1	1	118.043	104.334	352.070
118.085	281.419	3	1	1	118.152	104.334	352.070
118.710	282.200	3	1	1	116.742	104.334	352.070
119.379	282.944	3	1	1	116.928	104.334	352.070
120.051	283.684	3	1	1	117.239	104.334	352.070
120.723	284.425	3	1	1	120.078	104.334	352.070
121.395	285.166	3	1	1	110.122	104.334	352.070
122.066	285.906	3	1	1	113.276	104.334	352.070
122.738	286.647	3	1	1	118.655	104.334	352.070
123.410	287.388	3	1	1	118.605	104.334	352.070
124.082	288.129	3	1	1	120.877	104.334	352.070
124.754	288.869	3	1	1	117.236	104.334	352.070
125.425	289.610	3	1	1	119.796	104.334	352.070
126.097	290.351	3	1	1	117.592	104.334	352.070
126.769	291.091	3	1	1	115.003	104.334	352.070
127.441	291.832	3	1	1	119.168	104.334	352.070
128.113	292.573	3	1	1	119.234	104.334	352.070
128.820	293.279	3	1	1	117.926	104.334	352.070
129.574	293.937	3	1	1	124.122	104.334	352.070
130.327	294.594	3	1	1	121.878	104.334	352.070
131.081	295.252	3	1	1	120.699	104.334	352.070
131.835	295.909	3	1	1	116.282	104.334	352.070
132.588	296.566	3	1	1	116.746	104.334	352.070
133.342	297.224	3	1	1	116.555	104.334	352.070
134.095	297.881	3	1	1	120.722	104.334	352.070
134.849	298.538	3	1	1	115.930	104.334	352.070
135.602	299.196	3	1	1	116.538	104.334	352.070
136.356	299.853	3	1	1	123.067	104.334	352.070
137.110	300.511	3	1	1	123.001	104.334	352.070
137.863	301.168	3	1	1	121.809	104.334	352.070
138.617	301.825	3	1	1	119.683	104.334	352.070
139.370	302.483	3	1	1	120.527	104.334	352.070
140.124	303.140	3	1	1	122.575	104.334	352.070
140.954	303.698	3	1	1	120.034	104.334	352.070
141.797	304.235	3	1	1	119.232	104.334	352.070
142.641	304.772	3	1	1	118.916	104.334	352.070
143.485	305.309	3	1	1	117.826	104.334	352.070
144.328	305.845	3	1	1	119.310	104.334	352.070
145.172	306.382	3	1	1	124.126	104.334	352.070
146.016	306.919	3	1	1	116.408	104.334	352.070
146.859	307.456	3	1	1	117.773	104.334	352.070
147.703	307.993	3	1	1	115.437	104.334	352.070
148.547	308.530	3	1	1	120.199	104.334	352.070
149.390	309.067	3	1	1	119.808	104.334	352.070
150.234	309.604	3	1	1	127.991	104.334	352.070
151.078	310.140	3	1	1	123.540	104.334	352.070
152.029	310.448	3	1	1	118.506	104.334	352.070
152.999	310.694	3	1	1	118.055	104.334	352.070
153.968	310.940	3	1	1	118.876	104.334	352.070
154.937	311.186	3	1	1	124.122	104.334	352.070
155.906	311.431	3	1	1	121.566	104.334	352.070
156.876	311.677	3	1	1	117.920	104.334	352.070
157.845	311.923	3	1	1	120.229	104.334	352.070
158.814	312.169	3	1	1	115.924	104.334	352.070
159.784	312.415	3	1	1	116.774	104.334	352.070
160.753	312.661	3	1	1	121.260	104.334	352.070
161.722	312.907	3	1	1	125.697	104.334	352.070
162.691	313.153	3	1	1	128.007	104.334	352.070
163.661	313.399	3	1	1	120.259	104.334	352.070
164.630	313.645	3	1	1	122.146	104.334	352.070
165.599	313.891	3	1	1	119.103	104.334	352.070
166.569	314.137	3	1	1	122.026	104.334	352.070
167.538	314.383	3	1	1	116.893	104.334	352.070
168.516	314.589	3	1	1	117.098	104.334	352.070
169.502	314.760	3	1	1	118.679	104.334	352.070
170.487	314.930	3	1	1	118.320	104.334	352.070
171.472	315.101	3	1	1	120.195	104.334	352.070
172.458	315.272	3	1	1	120.123	104.334	352.070
173.443	315.442	3	1	1	124.486	104.334	352.070
174.428	315.613	3	1	1	122.558	104.334	352.070
175.414	315.783	3	1	1	120.325	104.334	352.070
176.399	315.954	3	1	1	123.231	104.334	352.070
177.384	316.124	3	1	1	127.455	104.334	352.070
178.370	316.295	3	1	1	123.779	104.334	352.070
179.355	316.465	3	1	1	122.745	104.334	352.070
180.341	316.636	3	1	1	118.860	104.334	352.070
181.325	316.809	3	1	1	121.471	104.334	352.070
182.309	316.988	3	1	1	120.660	104.334	352.070
183.293	317.167	3	1	1	125.028	104.334	352.070
184.277	317.346	3	1	1	124.077	104.334	352.070
185.261	317.525	3	1	1	121.186	104.334	352.070
186.245	317.704	3	1	1	124.553	104.334	352.070
187.229	317.882	3	1	1	127.941	104.334	352.070
188.212	318.061	3	1	1	127.210	104.334	352.070
189.196	318.240	3	1	1	121.509	104.334	352.070
190.180	318.419	3	1	1	116.898	104.334	352.070
191.164	318.598	3	1	1	118.908	104.334	352.070
192.148	318.777	3	1	1	116.870	104.334	352.070
193.132	318.956	3	1	1	123.424	104.334	352.070
194.116	319.135	3	1	1	123.203	104.334	352.070
195.106	319.275	3	1	1	125.018	104.334	352.070
196.103	319.345	3	1	1	120.922	104.334	352.070
197.101	319.415	3	1	1	124.625	104.334	352.070
198.098	319.485	3	1	1	120.427	104.334	352.070
199.096	319.555	3	1	1	122.646	104.334	352.070
200.094	319.625	3	1	1	124.428	104.334	352.070
201.091	319.695	3	1	1	118.577	104.334	352.070
202.089	319.765	3	1	1	117.232	104.334	352.070
203.086	319.835	3	1	1	120.908	104.334	352.070
204.084	319.905	3	1	1	117.769	104.334	352.070
205.081	319.975	3	1	1	122.340	104.334	352.070
206.079	320.045	3	1	1	118.439	104.334	352.070
207.076	320.115	3	1	1	114.790	104.334	352.070
208.074	320.185	3	1	1	121.822	104.334	352.070
209.073	320.233	3	1	1	118.525	104.334	352.070
210.046	320.003	3	1	1	114.262	104.334	352.070
211.019	319.773	3	1	1	116.908	104.334	352.070
211.992	319.543	3	1	1	115.301	104.334	352.070
212.965	319.312	3	1	1	118.831	104.334	352.070
213.939	319.082	3	1	1	118.503	104.334	352.070
214.912	318.852	3	1	1	109.088	104.334	352.070
215.885	318.622	3	1	1	116.980	104.334	352.070
216.858	318.392	3	1	1	118.052	104.334	352.070
217.831	318.162	3	1	1	113.769	104.334	352.070
218.804	317.932	3	1	1	113.062	104.334	352.070
219.778	317.702	3	1	1	117.283	104.334	352.070
220.751	317.472	3	1	1	110.823	104.334	352.070
221.724	317.242	3	1	1	116.559	104.334	352.070
222.697	317.012	3	1	1	124.229	104.334	352.070
223.670	316.781	3	1	1	115.223	104.334	352.070
224.643	316.551	3	1	1	112.712	104.334	352.070
225.617	316.321	3	1	1	114.029	104.334	352.070
226.590	316.091	3	1	1	114.012	104.334	352.070
227.563	315.861	3	1	1	113.851	104.334	352.070
228.536	315.631	3	1	1	113.369	104.334	352.070
229.509	315.401	3	1	1	114.695	104.334	352.070
230.483	315.171	3	1	1	116.635	104.334	352.070
231.430	314.850	3	1	1	116.105	104.334	352.070
232.376	314.528	3	1	1	114.636	104.334	352.070
233.323	314.206	3	1	1	117.323	104.334	352.070
234.270	313.883	3	1	1	112.436	104.334	352.070
235.216	313.561	3	1	1	113.330	104.334	352.070
236.163	313.239	3	1	1	116.560	104.334	352.070
237.110	312.917	3	1	1	116.336	104.334	352.070
238.056	312.594	3	1	1	118.503	104.334	352.070
239.003	312.272	3	1	1	115.627	104.334	352.070
239.950	311.950	3	1	1	115.872	104.334	352.070
240.896	311.628	3	1	1	116.092	104.334	352.070
241.843	311.305	3	1	1	115.549	104.334	352.070
242.790	310.983	3	1	1	120.030	104.334	352.070
243.736	310.661	3	1	1	113.215	104.334	352.070
244.683	310.338	3	1	1	116.031	104.334	352.070
245.629	310.016	3	1	1	113.002	104.334	352.070
246.565	309.663	3	1	1	116.728	104.334	352.070
247.484	309.269	3	1	1	116.845	104.334	352.070
248.403	308.875	3	1	1	114.990	104.334	352.070
249.322	308.481	3	1	1	115.196	104.334	352.070
250.241	308.087	3	1	1	110.066	104.334	352.070
251.161	307.693	3	1	1	117.705	104.334	352.070
252.080	307.299	3	1	1	109.611	104.334	352.070
252.999	306.905	3	1	1	113.000	104.334	352.070
253.918	306.511	3	1	1	116.144	104.334	352.070
254.837	306.117	3	1	1	115.158	104.334	352.070
255.740	305.687	3	1	1	120.597	104.334	352.070
256.594	305.167	3	1	1	117.289	104.334	352.070
257.448	304.646	3	1	1	116.286	104.334	352.070
258.302	304.126	3	1	1	114.464	104.334	352.070
259.155	303.605	3	1	1	116.008	104.334	352.070
260.009	303.085	3	1	1	114.040	104.334	352.070
260.863	302.564	3	1	1	111.596	104.334	352.070
261.717	302.044	3	1	1	110.495	104.334	352.070
262.571	301.523	3	1	1	114.636	104.334	352.070
263.425	301.003	3	1	1	110.836	104.334	352.070
264.280	300.484	3	1	1	114.565	104.334	352.070
265.157	300.004	3	1	1	116.982	104.334	352.070
266.034	299.524	3	1	1	115.144	104.334	352.070
266.912	299.045	3	1	1	114.915	104.334	352.070
267.789	298.565	3	1	1	115.272	104.334	352.070
268.667	298.085	3	1	1	117.549	104.334	352.070
269.544	297.605	3	1	1	116.508	104.334	352.070
270.421	297.126	3	1	1	118.317	104.334	352.070
271.299	296.646	3	1	1	114.170	104.334	352.070
272.176	296.166	3	1	1	112.758	104.334	352.070
273.054	295.686	3	1	1	113.433	104.334	352.070
273.931	295.207	3	1	1	111.211	104.334	352.070
274.809	294.727	3	1	1	108.290	104.334	352.070
275.686	294.247	3	1	1	112.327	104.334	352.070
276.473	293.630	3	1	1	110.818	104.334	352.070
277.238	292.987	3	1	1	109.499	104.334	352.070
278.004	292.343	3	1	1	109.796	104.334	352.070
278.770	291.700	3	1	1	111.908	104.334	352.070
279.535	291.057	3	1	1	116.374	104.334	352.070
280.301	290.414	3	1	1	120.212	104.334	352.070
281.067	289.771	3	1	1	114.083	104.334	352.070
281.832	289.127	3	1	1	114.678	104.334	352.070
282.598	288.484	3	1	1	113.325	104.334	352.070
283.364	287.841	3	1	1	113.103	104.334	352.070
284.130	287.198	3	1	1	112.109	104.334	352.070
284.825	286.479	3	1	1	113.284	104.334	352.070
285.517	285.758	3	1	1	115.381	104.334	352.070
286.209	285.036	3	1	1	114.755	104.334	352.070
286.901	284.314	3	1	1	115.793	104.334	352.070
287.593	283.592	3	1	1	115.761	104.334	352.070
288.285	282.870	3	1	1	112.785	104.334	352.070
288.977	282.148	3	1	1	112.869	104.334	352.070
289.669	281.426	3	1	1	115.772	104.334	352.070
290.360	280.704	3	1	1	109.501	104.334	352.070
291.052	279.982	3	1	1	113.944	104.334	352.070
291.744	279.260	3	1	1	110.034	104.334	352.070
292.400	278.505	3	1	1	115.558	104.334	352.070
293.051	277.746	3	1	1	118.046	104.334	352.070
293.702	276.987	3	1	1	112.052	104.334	352.070
294.353	276.227	3	1	1	112.184	104.334	352.070
295.004	275.468	3	1	1	113.785	104.334	352.070
295.654	274.709	3	1	1	110.186	104.334	352.070
296.305	273.949	3	1	1	111.047	104.334	352.070
296.956	273.190	3	1	1	121.338	104.334	352.070
297.607	272.431	3	1	1	114.635	104.334	352.070
298.258	271.672	3	1	1	114.310	104.334	352.070
298.908	270.912	3	1	1	114.414	104.334	352.070
299.559	270.153	3	1	1	114.231	104.334	352.070
300.087	269.304	3	1	1	111.424	104.334	352.070
300.518	268.401	3	1	1	116.202	104.334	352.070
300.949	267.499	3	1	1	113.582	104.334	352.070
301.380	266.597	3	1	1	115.953	104.334	352.070
301.811	265.695	3	1	1	109.735	104.334	352.070
302.243	264.792	3	1	1	115.171	104.334	352.070
302.674	263.890	3	1	1	114.906	104.334	352.070
303.105	262.988	3	1	1	112.145	104.334	352.070
303.536	262.086	3	1	1	113.278	104.334	352.070
303.968	261.183	3	1	1	109.188	104.334	352.070
304.399	260.281	3	1	1	110.989	104.334	352.070
304.830	259.379	3	1	1	111.417	104.334	352.070
305.261	258.477	3	1	1	114.568	104.334	352.070
305.704	257.580	3	1	1	111.891	104.334	352.070
306.147	256.684	3	1	1	110.192	104.334	352.070
306.590	255.787	3	1	1	109.671	104.334	352.070
307.033	254.890	3	1	1	115.426	104.334	352.070
307.476	253.994	3	1	1	110.910	104.334	352.070
307.918	253.097	3	1	1	110.605	104.334	352.070
308.361	252.201	3	1	1	108.496	104.334	352.070
308.804	251.304	3	1	1	111.016	104.334	352.070
309.247	250.407	3	1	1	113.305	104.334	352.070
309.690	249.511	3	1	1	113.332	104.334	352.070
310.133	248.614	3	1	1	114.035	104.334	352.070
310.576	247.717	3	1	1	109.166	104.334	352.070
311.018	246.821	3	1	1	112.310	104.334	352.070
311.461	245.924	3	1	1	112.010	104.334	352.070
311.904	245.028	3	1	1	115.487	104.334	352.070
312.331	244.123	3	1	1	113.699	104.334	352.070
312.754	243.217	3	1	1	112.549	104.334	352.070
313.176	242.311	3	1	1	112.445	104.334	352.070
313.599	241.404	3	1	1	114.974	104.334	352.070
314.021	240.498	3	1	1	113.557	104.334	352.070
314.444	239.592	3	1	1	111.696	104.334	352.070
314.866	238.685	3	1	1	109.561	104.334	352.070
315.289	237.779	3	1	1	113.437	104.334	352.070
315.711	236.873	3	1	1	112.419	104.334	352.070
316.134	235.966	3	1	1	107.549	104.334	352.070
316.556	235.060	3	1	1	114.126	104.334	352.070
316.979	234.154	3	1	1	109.110	104.334	352.070
317.402	233.247	3	1	1	113.757	104.334	352.070
317.758	232.313	3	1	1	111.056	104.334	352.070
317.799	231.314	3	1	1	113.008	104.334	352.070
317.841	230.315	3	1	1	115.347	104.334	352.070
317.883	229.316	3	1	1	112.056	104.334	352.070
317.924	228.316	3	1	1	108.345	104.334	352.070
317.966	227.317	3	1	1	113.318	104.334	352.070
318.008	226.318	3	1	1	117.185	104.334	352.070
318.049	225.319	3	1	1	112.285	104.334	352.070
318.091	224.320	3	1	1	115.552	104.334	352.070
318.132	223.321	3	1	1	115.356	104.334	352.070
318.174	222.322	3	1	1	108.752	104.334	352.070
318.216	221.322	3	1	1	112.046	104.334	352.070
318.257	220.323	3	1	1	111.320	104.334	352.070
318.299	219.324	3	1	1	108.281	104.334	352.070
318.341	218.325	3	1	1	112.781	104.334	352.070
318.382	217.326	3	1	1	112.248	104.334	352.070
318.424	216.327	3	1	1	113.923	104.334	352.070
318.466	215.328	3	1	1	115.772	104.334	352.070
318.505	214.328	3	1	1	116.316	104.334	352.070
318.536	213.329	3	1	1	114.077	104.334	352.070
318.567	212.329	3	1	1	112.403	104.334	352.070
318.598	211.330	3	1	1	117.604	104.334	352.070
318.628	210.330	3	1	1	116.954	104.334	352.070
318.659	209.331	3	1	1	117.406	104.334	352.070
318.690	208.331	3	1	1	110.926	104.334	352.070
318.721	207.332	3	1	1	104.745	104.334	352.070
318.751	206.332	3	1	1	112.796	104.334	352.070
318.782	205.333	3	1	1	111.875	104.334	352.070
318.813	204.333	3	1	1	114.871	104.334	352.070
318.844	203.334	3	1	1	114.916	104.334	352.070
318.874	202.334	3	1	1	114.461	104.334	352.070
318.905	201.335	3	1	1	115.583	104.334	352.070
318.936	200.335	3	1	1	113.932	104.334	352.070
318.967	199.336	3	1	1	112.376	104.334	352.070
318.997	198.336	3	1	1	115.418	104.334	352.070
318.778	197.360	3	1	1	111.727	104.334	352.070
318.535	196.390	3	1	1	110.937	104.334	352.070
318.293	195.420	3	1	1	112.388	104.334	352.070
318.050	194.450	3	1	1	118.068	104.334	352.070
317.807	193.480	3	1	1	113.546	104.334	352.070
317.565	192.510	3	1	1	111.311	104.334	352.070
317.322	191.540	3	1	1	111.852	104.334	352.070
317.080	190.569	3	1	1	113.891	104.334	352.070
316.837	189.599	3	1	1	116.045	104.334	352.070
316.595	188.629	3	1	1	119.799	104.334	352.070
316.352	187.659	3	1	1	113.788	104.334	352.070
316.110	186.689	3	1	1	114.200	104.334	352.070
315.867	185.719	3	1	1	110.390	104.334	352.070
315.625	184.749	3	1	1	111.255	104.334	352.070
315.382	183.778	3	1	1	113.807	104.334	352.070
315.048	182.836	3	1	1	115.301	104.334	352.070
314.610	181.937	3	1	1	114.859	104.334	352.070
314.171	181.038	3	1	1	112.329	104.334	352.070
313.733	180.140	3	1	1	114.295	104.334	352.070
313.294	179.241	3	1	1	116.001	104.334	352.070
312.856	178.342	3	1	1	116.987	104.334	352.070
312.417	177.443	3	1	1	114.100	104.334	352.070
311.979	176.545	3	1	1	116.912	104.334	352.070
311.541	175.646	3	1	1	113.683	104.334	352.070
311.102	174.747	3	1	1	111.561	104.334	352.070
310.664	173.848	3	1	1	120.750	104.334	352.070
310.231	172.947	3	1	1	112.498	104.334	352.070
309.893	172.006	3	1	1	107.563	104.334	352.070
309.555	171.064	3	1	1	110.215	104.334	352.070
309.217	170.123	3	1	1	111.745	104.334	352.070
308.879	169.182	3	1	1	115.989	104.334	352.070
308.542	168.241	3	1	1	114.380	104.334	352.070
308.204	167.300	3	1	1	113.757	104.334	352.070
307.866	166.358	3	1	1	122.097	104.334	352.070
307.528	165.417	3	1	1	122.778	104.334	352.070
307.190	164.476	3	1	1	118.145	104.334	352.070
306.852	163.535	3	1	1	108.343	104.334	352.070
306.514	162.594	3	1	1	110.526	104.334	352.070
306.177	161.652	3	1	1	118.803	104.334	352.070
305.839	160.711	3	1	1	119.377	104.334	352.070
305.501	159.770	3	1	1	123.970	104.334	352.070
305.163	158.829	3	1	1	116.578	104.334	352.070
304.825	157.888	3	1	1	120.897	104.334	352.070
304.487	156.947	3	1	1	116.594	104.334	352.070
304.149	156.005	3	1	1	116.187	104.334	352.070
303.811	155.064	3	1	1	117.750	104.334	352.070
303.474	154.123	3	1	1	118.021	104.334	352.070
303.112	153.191	3	1	1	117.172	104.334	352.070
302.705	152.277	3	1	1	116.510	104.334	352.070
302.297	151.364	3	1	1	112.005	104.334	352.070
301.890	150.451	3	1	1	116.352	104.334	352.070
301.482	149.538	3	1	1	119.768	104.334	352.070
301.075	148.624	3	1	1	121.077	104.334	352.070
300.667	147.711	3	1	1	112.656	104.334	352.070
300.260	146.798	3	1	1	109.314	104.334	352.070
299.852	145.885	3	1	1	113.427	104.334	352.070
299.445	144.972	3	1	1	116.900	104.334	352.070
299.038	144.058	3	1	1	114.860	104.334	352.070
298.630	143.145	3	1	1	114.940	104.334	352.070
298.223	142.232	3	1	1	111.383	104.334	352.070
297.815	141.319	3	1	1	109.593	104.334	352.070
297.408	140.405	3	1	1	120.003	104.334	352.070
297.000	139.492	3	1	1	117.466	104.334	352.070
296.593	138.579	3	1	1	115.099	104.334	352.070
296.185	137.666	3	1	1	124.284	104.334	352.070
295.669	136.809	3	1	1	122.605	104.334	352.070
295.069	136.009	3	1	1	120.203	104.334	352.070
294.469	135.209	3	1	1	121.477	104.334	352.070
293.869	134.409	3	1	1	118.429	104.334	352.070
293.269	133.609	3	1	1	121.395	104.334	352.070
292.669	132.809	3	1	1	122.202	104.334	352.070
292.069	132.009	3	1	1	119.693	104.334	352.070
291.469	131.209	3	1	1	119.421	104.334	352.070
290.869	130.409	3	1	1	114.965	104.334	352.070
290.269	129.609	3	1	1	119.677	104.334	352.070
289.669	128.809	3	1	1	119.654	104.334	352.070
289.069	128.009	3	1	1	113.105	104.334	352.070
288.469	127.209	3	1	1	119.979	104.334	352.070
287.869	126.409	3	1	1	125.849	104.334	352.070
287.269	125.609	3	1	1	124.417	104.334	352.070
286.669	124.809	3	1	1	119.042	104.334	352.070
286.069	124.009	3	1	1	118.815	104.334	352.070
285.469	123.209	3	1	1	122.519	104.334	352.070
284.869	122.409	3	1	1	123.275	104.334	352.070
284.098	121.773	3	1	1	123.659	104.334	352.070
283.291	121.182	3	1	1	114.195	104.334	352.070
282.485	120.591	3	1	1	114.064	104.334	352.070
281.678	120.000	3	1	1	125.148	104.334	352.070
280.871	119.409	3	1	1	117.942	104.334	352.070
280.064	118.818	3	1	1	121.728	104.334	352.070
279.258	118.227	3	1	1	122.326	104.334	352.070
278.451	117.636	3	1	1	119.730	104.334	352.070
277.644	117.046	3	1	1	130.532	104.334	352.070
276.837	116.455	3	1	1	124.894	104.334	352.070
276.030	115.864	3	1	1	118.714	104.334	352.070
275.224	115.273	3	1	1	126.699	104.334	352.070
274.417	114.682	3	1	1	118.529	104.334	352.070
273.610	114.091	3	1	1	117.910	104.334	352.070
272.803	113.500	3	1	1	120.655	104.334	352.070
271.997	112.910	3	1	1	122.352	104.334	352.070
271.190	112.319	3	1	1	128.502	104.334	352.070
270.383	111.728	3	1	1	124.052	104.334	352.070
269.576	111.137	3	1	1	120.252	104.334	352.070
268.770	110.546	3	1	1	123.503	104.334	352.070
267.963	109.955	3	1	1	120.899	104.334	352.070
267.156	109.364	3	1	1	120.398	104.334	352.070
266.304	108.841	3	1	1	124.483	104.334	352.070
265.442	108.334	3	1	1	129.957	104.334	352.070
264.580	107.827	3	1	1	125.360	104.334	352.070
263.718	107.320	3	1	1	128.565	104.334	352.070
262.856	106.813	3	1	1	127.333	104.334	352.070
261.994	106.306	3	1	1	121.100	104.334	352.070
261.133	105.799	3	1	1	125.083	104.334	352.070
260.271	105.292	3	1	1	128.769	104.334	352.070
259.409	104.784	3	1	1	128.011	104.334	352.070
258.547	104.277	3	1	1	125.398	104.334	352.070
257.625	103.890	3	1	1	132.980	104.334	352.070
256.700	103.509	3	1	1	129.866	104.334	352.070
255.776	103.128	3	1	1	123.968	104.334	352.070
254.851	102.747	3	1	1	132.296	104.334	352.070
253.926	102.367	3	1	1	129.106	104.334	352.070
253.002	101.986	3	1	1	122.423	104.334	352.070
252.077	101.605	3	1	1	124.588	104.334	352.070
251.152	101.224	3	1	1	124.945	104.334	352.070
250.228	100.844	3	1	1	128.018	104.334	352.070
249.331	100.400	3	1	1	130.122	104.334	352.070
248.446	99.936	3	1	1	131.635	104.334	352.070
247.560	99.472	3	1	1	131.121	104.334	352.070
246.674	99.008	3	1	1	132.714	104.334	352.070
245.788	98.544	3	1	1	134.650	104.334	352.070
244.902	98.080	3	1	1	135.684	104.334	352.070
243.908	97.973	3	1	1	130.480	104.334	352.070
242.909	97.941	3	1	1	135.028	104.334	352.070
241.909	97.908	3	1	1	129.702	104.334	352.070
240.910	97.876	3	1	1	135.922	104.334	352.070
239.910	97.844	3	1	1	132.590	104.334	352.070
238.911	97.812	3	1	1	130.958	104.334	352.070
237.911	97.779	3	1	1	134.897	104.334	352.070
236.916	97.685	3	1	1	139.924	104.334	352.070
236.123	97.075	3	1	1	137.496	104.334	352.070
235.330	96.466	3	1	1	134.561	104.334	352.070
234.538	95.856	3	1	1	135.118	104.334	352.070
233.745	95.246	3	1	1	137.875	104.334	352.070
232.952	94.637	3	1	1	139.391	104.334	352.070
232.160	94.027	3	1	1	133.432	104.334	352.070
231.367	93.417	3	1	1	138.057	104.334	352.070
230.575	92.807	3	1	1	132.428	104.334	352.070
229.701	92.320	3	1	1	138.193	104.334	352.070
228.821	91.846	3	1	1	135.861	104.334	352.070
227.940	91.372	3	1	1	142.505	104.334	352.070
227.060	90.898	3	1	1	139.353	104.334	352.070
226.180	90.424	3	1	1	139.461	104.334	352.070
225.299	89.949	3	1	1	136.539	104.334	352.070
224.419	89.475	3	1	1	134.974	104.334	352.070
223.440	89.270	3	1	1	136.854	104.334	352.070
222.440	89.307	3	1	1	141.430	104.334	352.070
221.441	89.344	3	1	1	134.738	104.334	352.070
220.442	89.380	3	1	1	128.027	104.334	352.070
219.442	89.417	3	1	1	133.483	104.334	352.070
218.443	89.453	3	1	1	139.564	104.334	352.070
217.444	89.490	3	1	1	139.803	104.334	352.070
216.483	89.769	3	1	1	139.212	104.334	352.070
215.553	90.135	3	1	1	140.799	104.334	352.070
214.622	90.501	3	1	1	144.712	104.334	352.070
213.692	90.867	3	1	1	139.017	104.334	352.070
212.761	91.233	3	1	1	137.463	104.334	352.070
211.831	91.599	3	1	1	139.269	104.334	352.070
210.900	91.966	3	1	1	144.567	104.334	352.070
209.970	92.332	3	1	1	145.355	104.334	352.070
209.039	92.698	3	1	1	150.304	104.334	352.070
208.108	93.064	3	1	1	145.490	104.334	352.070
207.178	93.430	3	1	1	150.768	104.334	352.070
206.185	93.553	3	1	1	147.922	104.334	352.070
205.188	93.618	3	1	1	148.250	104.334	352.070
204.190	93.683	3	1	1	142.087	104.334	352.070
203.192	93.748	3	1	1	149.727	104.334	352.070
202.194	93.813	3	1	1	156.379	104.334	352.070
201.196	93.879	3	1	1	149.487	104.334	352.070
200.198	93.944	3	1	1	145.534	104.334	352.070
199.199	93.992	3	1	1	147.916	104.334	352.070
198.201	93.935	3	1	1	154.438	104.334	352.070
197.203	93.877	3	1	1	158.022	104.334	352.070
196.204	93.819	3	1	1	150.905	104.334	352.070
195.206	93.762	3	1	1	148.690	104.334	352.070
194.208	93.704	3	1	1	139.303	104.334	352.070
193.209	93.647	3	1	1	146.414	104.334	352.070
192.211	93.589	3	1	1	148.232	104.334	352.070
191.213	93.532	3	1	1	154.842	104.334	352.070
190.216	93.608	3	1	1	153.962	104.334	352.070
189.243	93.840	3	1	1	153.160	104.334	352.070
188.270	94.073	3	1	1	150.105	104.334	352.070
187.298	94.306	3	1	1	153.965	104.334	352.070
186.325	94.538	3	1	1	153.305	104.334	352.070
185.353	94.771	3	1	1	154.818	104.334	352.070
184.380	95.003	3	1	1	151.893	104.334	352.070
183.408	95.236	3	1	1	157.670	104.334	352.070
182.425	95.421	3	1	1	160.209	104.334	352.070
181.436	95.570	3	1	1	155.472	104.334	352.070
180.447	95.720	3	1	1	159.072	104.334	352.070
179.459	95.870	3	1	1	156.361	104.334	352.070
178.470	96.020	3	1	1	156.795	104.334	352.070
177.481	96.167	3	1	1	157.275	104.334	352.070
176.481	96.167	3	1	1	154.609	104.334	352.070
175.481	96.167	3	1	1	156.183	104.334	352.070
174.481	96.167	3	1	1	156.183	104.334	352.070
173.481	96.167	3	1	1	157.219	104.334	352.070
172.481	96.167	3	1	1	158.306	104.334	352.070
171.481	96.167	3	1	1	152.906	104.334	352.070
170.481	96.167	3	1	1	154.017	104.334	352.070
169.481	96.167	3	1	1	159.492	104.334	352.070
168.505	96.387	3	1	1	159.563	104.334	352.070
167.557	96.703	3	1	1	162.347	104.334	352.070
166.608	97.020	3	1	1	167.759	104.334	352.070
165.659	97.336	3	1	1	162.189	104.334	352.070
164.711	97.652	3	1	1	168.063	104.334	352.070
163.762	97.968	3	1	1	157.428	104.334	352.070
162.813	98.284	3	1	1	163.905	104.334	352.070
161.865	98.601	3	1	1	154.347	104.334	352.070
160.916	98.917	3	1	1	155.520	104.334	352.070
159.995	99.307	3	1	1	158.874	104.334	352.070
159.221	99.940	3	1	1	162.507	104.334	352.070
158.447	100.574	3	1	1	166.522	104.334	352.070
157.673	101.207	3	1	1	162.211	104.334	352.070
156.899	101.840	3	1	1	161.355	104.334	352.070
156.125	102.473	3	1	1	164.382	104.334	352.070
155.351	103.106	3	1	1	158.235	104.334	352.070
154.577	103.740	3	1	1	157.713	104.334	352.070
153.803	104.373	3	1	1	156.547	104.334	352.070
153.029	105.006	3	1	1	160.121	104.334	352.070
152.168	105.514	3	1	1	161.322	104.334	352.070
151.282	105.978	3	1	1	157.864	104.334	352.070
150.396	106.441	3	1	1	158.256	104.334	352.070
149.510	106.904	3	1	1	159.215	104.334	352.070
148.623	107.367	3	1	1	159.080	104.334	352.070
147.737	107.831	3	1	1	158.384	104.334	352.070
146.851	108.294	3	1	1	159.873	104.334	352.070
145.965	108.757	3	1	1	161.989	104.334	352.070
